trials.thisTrialN,trials.stepSize,trials.intensity,fixation.started,grating.started,key_resp.started,fixation.stopped,grating.stopped,corrAns,tilt,key_resp.corr,trials.response,key_resp.rt,participant,session,date,expName,psychopyVersion,frameRate,,
0,2,10,9.9580382,10.4677815,10.4677815,10.4856604,10.7695399,right,10,1,1,3.3647297,482354,1,2023-09-05_09h29.43.066,adaptive_staircase,2023.1.3,59.7282722,,
1,1,8,13.8523489,14.352378,14.352378,14.352378,14.6528305,left,-8,0,0,37.0242414,482354,1,2023-09-05_09h29.43.066,adaptive_staircase,2023.1.3,59.7282722,,
2,1,9,51.4030204,51.8866198,51.8866198,51.9038728,52.1862953,left,-9,0,0,9.5922967,482354,1,2023-09-05_09h29.43.066,adaptive_staircase,2023.1.3,59.7282722,,
3,1,10,61.5031046,62.0030291,62.0030291,62.0030291,62.3031714,right,10,1,1,0.5547119,482354,1,2023-09-05_09h29.43.066,adaptive_staircase,2023.1.3,59.7282722,,
4,1,10,62.587424,63.0864898,63.0864898,63.0864898,63.3867186,left,-10,1,1,5.5793749,482354,1,2023-09-05_09h29.43.066,adaptive_staircase,2023.1.3,59.7282722,,
5,1,9,68.6861538,69.1860468,69.1860468,69.1860468,69.4863207,left,-9,1,1,1.8551334,482354,1,2023-09-05_09h29.43.066,adaptive_staircase,2023.1.3,59.7282722,,
6,1,9,71.0692904,71.569301,71.569301,71.569301,71.8693593,right,9,1,1,1.1905457,482354,1,2023-09-05_09h29.43.066,adaptive_staircase,2023.1.3,59.7282722,,
7,1,8,72.7859731,73.2693648,73.2693648,73.2861769,73.5695837,left,-8,1,1,10.1500661,482354,1,2023-09-05_09h29.43.066,adaptive_staircase,2023.1.3,59.7282722,,
8,1,8,83.4367238,83.9363402,83.9363402,83.9363402,84.2363976,left,-8,1,1,0.7724502,482354,1,2023-09-05_09h29.43.066,adaptive_staircase,2023.1.3,59.7282722,,
9,1,7,84.7511716,85.2528766,85.2528766,85.2528766,85.5532739,left,-7,1,1,2.2564038,482354,1,2023-09-05_09h29.43.066,adaptive_staircase,2023.1.3,59.7282722,,
10,1,7,87.5364987,88.0194531,88.0194531,88.0361157,88.3194255,right,7,1,1,0.6228091,482354,1,2023-09-05_09h29.43.066,adaptive_staircase,2023.1.3,59.7282722,,
11,1,6,88.6696735,89.1527267,89.1527267,89.1696108,89.452736,right,6,1,1,2.6025873,482354,1,2023-09-05_09h29.43.066,adaptive_staircase,2023.1.3,59.7282722,,0.375
12,1,6,91.7863205,92.2695749,92.2695749,92.2863691,92.5696725,right,6,1,1,0.5900069,482354,1,2023-09-05_09h29.43.066,adaptive_staircase,2023.1.3,59.7282722,,
13,1,5,92.8863781,93.3697123,93.3697123,93.3864195,93.6703102,right,5,1,1,0.5761023,482354,1,2023-09-05_09h29.43.066,adaptive_staircase,2023.1.3,59.7282722,,
14,1,5,93.969289,94.453029,94.453029,94.4696563,94.7530841,right,5,1,1,0.5366775,482354,1,2023-09-05_09h29.43.066,adaptive_staircase,2023.1.3,59.7282722,,
15,1,4,95.0195913,95.5028431,95.5028431,95.5196082,95.803207,right,4,1,1,0.4835002,482354,1,2023-09-05_09h29.43.066,adaptive_staircase,2023.1.3,59.7282722,,
16,1,4,96.0028056,96.5029274,96.5029274,96.5029274,96.803151,right,4,1,1,0.5392605,482354,1,2023-09-05_09h29.43.066,adaptive_staircase,2023.1.3,59.7282722,,
17,1,3,97.0696316,97.5531933,97.5531933,97.5697567,97.8529604,right,3,1,1,0.6387826,482354,1,2023-09-05_09h29.43.066,adaptive_staircase,2023.1.3,59.7282722,,
18,1,3,98.219424,98.7029817,98.7029817,98.7196559,99.0027177,left,-3,1,1,3.3386154,482354,1,2023-09-05_09h29.43.066,adaptive_staircase,2023.1.3,59.7282722,,
19,1,2,102.0695759,102.5527605,102.5527605,102.5696708,102.8530452,right,2,1,1,2.7228845,482354,1,2023-09-05_09h29.43.066,adaptive_staircase,2023.1.3,59.7282722,,
20,1,2,105.3028355,105.786535,105.786535,105.8031379,106.0867717,left,-2,1,1,2.5708663,482354,1,2023-09-05_09h29.43.066,adaptive_staircase,2023.1.3,59.7282722,,
21,1,1,108.3868757,108.8695978,108.8695978,108.8863022,109.1696752,left,-1,1,1,0.9417602,482354,1,2023-09-05_09h29.43.066,adaptive_staircase,2023.1.3,59.7282722,,
22,1,1,109.8364376,110.3359545,110.3359545,110.3359545,110.6363505,left,-1,1,1,0.8020708,482354,1,2023-09-05_09h29.43.066,adaptive_staircase,2023.1.3,59.7282722,,
23,1,1,111.1559599,111.6397294,111.6397294,111.6577356,111.9429411,left,-1,1,1,0.6365083,482354,1,2023-09-05_09h29.43.066,adaptive_staircase,2023.1.3,59.7282722,,
24,1,1,112.3073698,112.8068967,112.8068967,112.823092,113.1042288,right,1,1,1,1.3382123,482354,1,2023-09-05_09h29.43.066,adaptive_staircase,2023.1.3,59.7282722,,
25,1,1,114.1737311,114.6708196,114.6708196,114.6879528,114.972,left,-1,1,1,0.6452488,482354,1,2023-09-05_09h29.43.066,adaptive_staircase,2023.1.3,59.7282722,,
26,0.5,1,115.3372643,115.8373296,115.8373296,115.8373296,116.1371933,right,1,0,0,1.3335245,482354,1,2023-09-05_09h29.43.066,adaptive_staircase,2023.1.3,59.7282722,,
27,0.5,1.5,117.2027836,117.6864638,117.6864638,117.7032482,117.9863441,right,1.5,1,1,0.6196567,482354,1,2023-09-05_09h29.43.066,adaptive_staircase,2023.1.3,59.7282722,,
28,0.5,1.5,118.3367912,118.8361663,118.8361663,118.8361663,119.1384634,right,1.5,1,1,0.6252182,482354,1,2023-09-05_09h29.43.066,adaptive_staircase,2023.1.3,59.7282722,,
29,0.5,1,119.4882778,119.9881891,119.9881891,120.0031287,120.3032005,left,-1,1,1,0.5717819,482354,1,2023-09-05_09h29.43.066,adaptive_staircase,2023.1.3,59.7282722,,
30,0.5,1,120.5862338,121.0701522,121.0701522,121.0873217,121.3716034,left,-1,1,1,0.5850321,482354,1,2023-09-05_09h29.43.066,adaptive_staircase,2023.1.3,59.7282722,,
31,0.5,1,121.6885595,122.1703195,122.1703195,122.204285,122.4701295,right,1,1,1,0.9005622,482354,1,2023-09-05_09h29.43.066,adaptive_staircase,2023.1.3,59.7282722,,
32,0.5,1,123.0864626,123.5865505,123.5865505,123.5865505,123.8864014,left,-1,1,1,0.6424035,482354,1,2023-09-05_09h29.43.066,adaptive_staircase,2023.1.3,59.7282722,,
33,0.5,1,124.2531616,124.7532977,124.7532977,124.7532977,125.0541528,right,1,1,1,0.5334917,482354,1,2023-09-05_09h29.43.066,adaptive_staircase,2023.1.3,59.7282722,,
34,0.5,1,125.3043907,125.8031871,125.8031871,125.8198396,126.1048176,left,-1,1,1,0.5188189,482354,1,2023-09-05_09h29.43.066,adaptive_staircase,2023.1.3,59.7282722,,
35,0.5,1,126.3543189,126.8360805,126.8360805,126.8696081,127.1361653,right,1,1,1,0.5478594,482354,1,2023-09-05_09h29.43.066,adaptive_staircase,2023.1.3,59.7282722,,
36,0.5,1,127.4029583,127.8863339,127.8863339,127.9029053,128.1864756,right,1,1,1,0.5694275,482354,1,2023-09-05_09h29.43.066,adaptive_staircase,2023.1.3,59.7282722,,
37,0.5,1,128.4862935,128.9698196,128.9698196,128.9867785,129.2700637,left,-1,1,1,0.5726475,482354,1,2023-09-05_09h29.43.066,adaptive_staircase,2023.1.3,59.7282722,,
38,0.5,1,129.5703966,130.0712384,130.0712384,130.0712384,130.3754199,right,1,1,1,0.5453836,482354,1,2023-09-05_09h29.43.066,adaptive_staircase,2023.1.3,59.7282722,,
39,0.5,1,130.6372405,131.1366657,131.1366657,131.1366657,131.4365091,right,1,1,1,0.6597812,482354,1,2023-09-05_09h29.43.066,adaptive_staircase,2023.1.3,59.7282722,,
40,0.5,1,131.8206543,132.3036693,132.3036693,132.3208252,132.6036231,right,1,1,1,0.6090517,482354,1,2023-09-05_09h29.43.066,adaptive_staircase,2023.1.3,59.7282722,,
41,0.5,1,132.9370333,133.4372806,133.4372806,133.4372806,133.7367545,left,-1,1,1,0.6225098,482354,1,2023-09-05_09h29.43.066,adaptive_staircase,2023.1.3,59.7282722,,
42,0.5,1,134.0883699,134.5711626,134.5711626,134.5869258,134.8874667,right,1,1,1,0.6799028,482354,1,2023-09-05_09h29.43.066,adaptive_staircase,2023.1.3,59.7282722,,
43,0.5,1,135.2701634,135.7699336,135.7699336,135.7699336,136.0702957,right,1,1,1,0.5925653,482354,1,2023-09-05_09h29.43.066,adaptive_staircase,2023.1.3,59.7282722,,
44,0.5,1,136.3864808,136.8702419,136.8702419,136.8870059,137.170123,right,1,1,1,0.587459,482354,1,2023-09-05_09h29.43.066,adaptive_staircase,2023.1.3,59.7282722,,
45,0.5,1,137.4866656,137.9700812,137.9700812,137.9876019,138.2699946,left,-1,1,1,0.848876,482354,1,2023-09-05_09h29.43.066,adaptive_staircase,2023.1.3,59.7282722,,
46,0.5,1,138.8363693,139.3210924,139.3210924,139.3369791,139.6370408,right,1,1,1,0.5001519,482354,1,2023-09-05_09h29.43.066,adaptive_staircase,2023.1.3,59.7282722,,
47,0.5,1,139.853569,140.3369807,140.3369807,140.3539782,140.6371278,left,-1,1,1,0.5426941,482354,1,2023-09-05_09h29.43.066,adaptive_staircase,2023.1.3,59.7282722,,
48,0.5,1,140.9031211,141.4037597,141.4037597,141.4037597,141.7051048,left,-1,1,1,0.5535443,482354,1,2023-09-05_09h29.43.066,adaptive_staircase,2023.1.3,59.7282722,,
49,0.5,1,141.9867856,142.4699531,142.4699531,142.4866199,142.7700308,left,-1,1,1,0.6001187,482354,1,2023-09-05_09h29.43.066,adaptive_staircase,2023.1.3,59.7282722,,
50,0.5,1,143.0863037,143.5866055,143.5866055,143.5866055,143.8868808,left,-1,1,1,0.6547624,482354,1,2023-09-05_09h29.43.066,adaptive_staircase,2023.1.3,59.7282722,,
51,0.5,1,144.2698747,144.7531025,144.7531025,144.7698064,145.0531152,left,-1,1,1,0.5955489,482354,1,2023-09-05_09h29.43.066,adaptive_staircase,2023.1.3,59.7282722,,
52,0.5,1,145.3701398,145.8701173,145.8701173,145.8701173,146.1703635,left,-1,1,1,0.7123915,482354,1,2023-09-05_09h29.43.066,adaptive_staircase,2023.1.3,59.7282722,,
53,0.5,1,146.603079,147.0865935,147.0865935,147.1034653,147.3866984,left,-1,1,1,0.7955978,482354,1,2023-09-05_09h29.43.066,adaptive_staircase,2023.1.3,59.7282722,,
54,0.5,1,147.9035194,148.4032474,148.4032474,148.4032474,148.7035706,left,-1,1,1,0.5444586,482354,1,2023-09-05_09h29.43.066,adaptive_staircase,2023.1.3,59.7282722,,
55,0.5,1,148.9697018,149.4532723,149.4532723,149.4700485,149.753271,right,1,1,1,0.519509,482354,1,2023-09-05_09h29.43.066,adaptive_staircase,2023.1.3,59.7282722,,
56,0.5,1,150.0032903,150.5032414,150.5032414,150.5032414,150.8032907,right,1,1,1,0.5970134,482354,1,2023-09-05_09h29.43.066,adaptive_staircase,2023.1.3,59.7282722,,
57,0.5,1,151.1197246,151.6053836,151.6053836,151.619842,151.9199766,left,-1,0,0,0.6957431,482354,1,2023-09-05_09h29.43.066,adaptive_staircase,2023.1.3,59.7282722,,
58,0.5,1.5,152.320418,152.8200219,152.8200219,152.8200219,153.1202093,right,1.5,1,1,0.5878172,482354,1,2023-09-05_09h29.43.066,adaptive_staircase,2023.1.3,59.7282722,,
59,0.5,1.5,153.4366787,153.9199034,153.9199034,153.9365833,154.2198029,left,-1.5,1,1,0.5520353,482354,1,2023-09-05_09h29.43.066,adaptive_staircase,2023.1.3,59.7282722,,
60,0.5,1,154.5030806,155.003378,155.003378,155.003378,155.3031208,right,1,1,1,0.5883547,482354,1,2023-09-05_09h29.43.066,adaptive_staircase,2023.1.3,59.7282722,,
61,0.5,1,155.6200358,156.1036147,156.1036147,156.1199891,156.4033238,right,1,1,1,0.5429347,482354,1,2023-09-05_09h29.43.066,adaptive_staircase,2023.1.3,59.7282722,,
62,0.5,1,156.6699151,157.1534098,157.1534098,157.1698283,157.4533498,right,1,1,1,0.558402,482354,1,2023-09-05_09h29.43.066,adaptive_staircase,2023.1.3,59.7282722,,
63,0.5,1,157.7369003,158.2198899,158.2198899,158.2369,158.520423,left,-1,1,1,0.5679707,482354,1,2023-09-05_09h29.43.066,adaptive_staircase,2023.1.3,59.7282722,,
64,0.5,1,158.8202337,159.3200526,159.3200526,159.3200526,159.6197075,right,1,1,1,0.4818113,482354,1,2023-09-05_09h29.43.066,adaptive_staircase,2023.1.3,59.7282722,,
65,0.5,1,159.8197916,160.3200333,160.3200333,160.3200333,160.620027,left,-1,1,1,0.4993981,482354,1,2023-09-05_09h29.43.066,adaptive_staircase,2023.1.3,59.7282722,,
66,0.5,1,160.8367149,161.3367324,161.3367324,161.3367324,161.6364644,right,1,1,1,0.5373825,482354,1,2023-09-05_09h29.43.066,adaptive_staircase,2023.1.3,59.7282722,,
67,0.5,1,161.9034162,162.4033136,162.4033136,162.4033136,162.7032688,right,1,1,1,0.5522634,482354,1,2023-09-05_09h29.43.066,adaptive_staircase,2023.1.3,59.7282722,,
68,0.5,1,162.9865519,163.4702073,163.4702073,163.4866824,163.770128,left,-1,1,1,0.4964148,482354,1,2023-09-05_09h29.43.066,adaptive_staircase,2023.1.3,59.7282722,,
69,0.5,1,163.9868987,164.4867999,164.4867999,164.4867999,164.7870239,right,1,1,1,0.5080177,482354,1,2023-09-05_09h29.43.066,adaptive_staircase,2023.1.3,59.7282722,,
70,0.5,1,165.0200105,165.5199614,165.5199614,165.5199614,165.8198763,left,-1,1,1,0.5351536,482354,1,2023-09-05_09h29.43.066,adaptive_staircase,2023.1.3,59.7282722,,
71,0.5,1,166.0869391,166.5866624,166.5866624,166.5866624,166.8868761,right,1,1,1,0.5411301,482354,1,2023-09-05_09h29.43.066,adaptive_staircase,2023.1.3,59.7282722,,
72,0.5,1,167.1534679,167.6366847,167.6366847,167.6535695,167.9366867,right,1,1,1,0.5994266,482354,1,2023-09-05_09h29.43.066,adaptive_staircase,2023.1.3,59.7282722,,
73,0.5,1,168.2533847,168.7533516,168.7533516,168.7533516,169.0537062,left,-1,1,1,0.5624233,482354,1,2023-09-05_09h29.43.066,adaptive_staircase,2023.1.3,59.7282722,,
74,0.5,1,169.3368585,169.8200516,169.8200516,169.8366892,170.1200438,left,-1,1,1,0.599475,482354,1,2023-09-05_09h29.43.066,adaptive_staircase,2023.1.3,59.7282722,,
75,0.5,1,170.436659,170.9368236,170.9368236,170.9368236,171.236712,left,-1,1,1,0.659106,482354,1,2023-09-05_09h29.43.066,adaptive_staircase,2023.1.3,59.7282722,,
76,0.5,1,171.6200568,172.1199699,172.1199699,172.1199699,172.4200345,right,1,1,1,0.5053684,482354,1,2023-09-05_09h29.43.066,adaptive_staircase,2023.1.3,59.7282722,,
77,0.5,1,172.6534413,173.1368111,173.1368111,173.1532634,173.4364737,right,1,1,1,0.5328137,482354,1,2023-09-05_09h29.43.066,adaptive_staircase,2023.1.3,59.7282722,,
78,0.5,1,173.6870365,174.1869414,174.1869414,174.1869414,174.4868935,right,1,1,1,0.5437197,482354,1,2023-09-05_09h29.43.066,adaptive_staircase,2023.1.3,59.7282722,,
79,0.5,1,174.752866,175.2535399,175.2535399,175.2535399,175.5532829,right,1,1,1,0.6288084,482354,1,2023-09-05_09h29.43.066,adaptive_staircase,2023.1.3,59.7282722,,
80,0.5,1,175.9037777,176.3867362,176.3867362,176.4033436,176.6872021,left,-1,1,1,0.5471086,482354,1,2023-09-05_09h29.43.066,adaptive_staircase,2023.1.3,59.7282722,,
81,0.5,1,176.9533045,177.4534172,177.4534172,177.4534172,177.7537003,right,1,1,1,0.5797425,482354,1,2023-09-05_09h29.43.066,adaptive_staircase,2023.1.3,59.7282722,,
82,0.5,1,178.0534735,178.5533368,178.5533368,178.5533368,178.8534108,left,-1,1,1,0.5857273,482354,1,2023-09-05_09h29.43.066,adaptive_staircase,2023.1.3,59.7282722,,
83,0.5,1,179.1700797,179.6536048,179.6536048,179.6701232,179.9533048,right,1,1,1,1.164618,482354,1,2023-09-05_09h29.43.066,adaptive_staircase,2023.1.3,59.7282722,,
84,0.5,1,180.8367404,181.3368222,181.3368222,181.3368222,181.6368402,right,1,1,1,0.6353363,482354,1,2023-09-05_09h29.43.066,adaptive_staircase,2023.1.3,59.7282722,,
85,0.5,1,182.0032566,182.5037237,182.5037237,182.5037237,182.8033358,right,1,1,1,0.5611632,482354,1,2023-09-05_09h29.43.066,adaptive_staircase,2023.1.3,59.7282722,,
86,0.5,1,183.0867753,183.5701064,183.5701064,183.586869,183.8702068,right,1,1,1,0.6159966,482354,1,2023-09-05_09h29.43.066,adaptive_staircase,2023.1.3,59.7282722,,
87,0.5,1,184.203496,184.7034351,184.7034351,184.7034351,185.0035029,right,1,1,1,0.6012674,482354,1,2023-09-05_09h29.43.066,adaptive_staircase,2023.1.3,59.7282722,,
88,0.5,1,185.3367432,185.820211,185.820211,185.8369845,186.1201689,left,-1,1,1,0.6337624,482354,1,2023-09-05_09h29.43.066,adaptive_staircase,2023.1.3,59.7282722,,
89,0.5,1,186.4701635,186.9701819,186.9701819,186.9701819,187.2705247,left,-1,1,1,0.6175932,482354,1,2023-09-05_09h29.43.066,adaptive_staircase,2023.1.3,59.7282722,,
90,0.5,1,187.6202425,188.1201245,188.1201245,188.1201245,188.419981,left,-1,1,1,0.5645908,482354,1,2023-09-05_09h29.43.066,adaptive_staircase,2023.1.3,59.7282722,,
91,0.5,1,188.7048021,189.203541,189.203541,189.2204071,189.5038575,right,1,0,0,2.1816876,482354,1,2023-09-05_09h29.43.066,adaptive_staircase,2023.1.3,59.7282722,,
92,0.5,1.5,191.4035929,191.9036915,191.9036915,191.9036915,192.2037499,left,-1.5,1,1,0.6551697,482354,1,2023-09-05_09h29.43.066,adaptive_staircase,2023.1.3,59.7282722,,
93,0.5,1.5,192.5868423,193.0870343,193.0870343,193.0870343,193.3871121,left,-1.5,1,1,0.5955962,482354,1,2023-09-05_09h29.43.066,adaptive_staircase,2023.1.3,59.7282722,,
94,0.5,1,193.7034439,194.1869034,194.1869034,194.2038364,194.4871286,left,-1,1,1,0.5637677,482354,1,2023-09-05_09h29.43.066,adaptive_staircase,2023.1.3,59.7282722,,
95,0.5,1,194.7699894,195.2536831,195.2536831,195.2701399,195.5536875,right,1,1,1,0.6759028,482354,1,2023-09-05_09h29.43.066,adaptive_staircase,2023.1.3,59.7282722,,
96,0.5,1,195.9535838,196.4532978,196.4532978,196.4532978,196.7535958,left,-1,1,1,0.6567615,482354,1,2023-09-05_09h29.43.066,adaptive_staircase,2023.1.3,59.7282722,,
97,0.5,1,197.1368463,197.6370071,197.6370071,197.6370071,197.9368048,right,1,1,1,0.6517257,482354,1,2023-09-05_09h29.43.066,adaptive_staircase,2023.1.3,59.7282722,,
98,0.5,1,198.3202844,198.8202371,198.8202371,198.8202371,199.12016,left,-1,0,0,1.1244541,482354,1,2023-09-05_09h29.43.066,adaptive_staircase,2023.1.3,59.7282722,,
99,0.5,1.5,199.9705065,200.4701216,200.4701216,200.4701216,200.7703167,right,1.5,1,1,0.6366914,482354,1,2023-09-05_09h29.43.066,adaptive_staircase,2023.1.3,59.7282722,,
100,0.5,1.5,201.1368995,201.63686,201.63686,201.63686,201.936868,left,-1.5,1,1,0.78402,482354,1,2023-09-05_09h29.43.066,adaptive_staircase,2023.1.3,59.7282722,,
101,0.5,1,202.4375499,202.9370441,202.9370441,202.9370441,203.2369684,right,1,1,1,0.7958625,482354,1,2023-09-05_09h29.43.066,adaptive_staircase,2023.1.3,59.7282722,,
102,0.5,1,203.7534935,204.2536471,204.2536471,204.2536471,204.5538021,left,-1,1,1,0.6213356,482354,1,2023-09-05_09h29.43.066,adaptive_staircase,2023.1.3,59.7282722,,
103,0.5,1,204.9034776,205.3868812,205.3868812,205.4036579,205.6872025,right,1,1,1,1.2005619,482354,1,2023-09-05_09h29.43.066,adaptive_staircase,2023.1.3,59.7282722,,
104,0.5,1,206.6037466,207.1037344,207.1037344,207.1037344,207.4036631,right,1,1,1,1.188752,482354,1,2023-09-05_09h29.43.066,adaptive_staircase,2023.1.3,59.7282722,,
105,0.5,1,208.3201471,208.8037502,208.8037502,208.8208867,209.103848,left,-1,1,1,1.2163969,482354,1,2023-09-05_09h29.43.066,adaptive_staircase,2023.1.3,59.7282722,,
106,0.5,1,210.0369834,210.537191,210.537191,210.537191,210.8375517,right,1,1,1,15.0921808,482354,1,2023-09-05_09h29.43.066,adaptive_staircase,2023.1.3,59.7282722,,
107,0.5,1,225.653998,226.1538581,226.1538581,226.1538581,226.4537405,left,-1,1,1,0.7623118,482354,1,2023-09-05_09h29.43.066,adaptive_staircase,2023.1.3,59.7282722,,
108,0.5,1,226.9370453,227.4204112,227.4204112,227.437203,227.7206743,right,1,0,0,3.9233359,482354,1,2023-09-05_09h29.43.066,adaptive_staircase,2023.1.3,59.7282722,,
109,0.5,1.5,231.3707206,231.8539376,231.8539376,231.8705546,232.1537266,left,-1.5,1,1,0.5882163,482354,1,2023-09-05_09h29.43.066,adaptive_staircase,2023.1.3,59.7282722,,
110,0.5,1.5,232.4703224,232.953698,232.953698,232.9705457,233.2539901,right,1.5,1,1,0.6448732,482354,1,2023-09-05_09h29.43.066,adaptive_staircase,2023.1.3,59.7282722,,
111,0.5,1,233.6202505,234.1038409,234.1038409,234.1206124,234.4040566,right,1,1,1,0.6542137,482354,1,2023-09-05_09h29.43.066,adaptive_staircase,2023.1.3,59.7282722,,
112,0.5,1,234.7874919,235.270618,235.270618,235.2874266,235.5711451,right,1,1,1,0.5717167,482354,1,2023-09-05_09h29.43.066,adaptive_staircase,2023.1.3,59.7282722,,
113,0.5,1,235.8703002,236.3541003,236.3541003,236.3705944,236.6540933,left,-1,1,1,0.45255,482354,1,2023-09-05_09h29.43.066,adaptive_staircase,2023.1.3,59.7282722,,
114,0.5,1,236.8371587,237.3205444,237.3205444,237.337459,237.6205521,left,-1,1,1,0.5082489,482354,1,2023-09-05_09h29.43.066,adaptive_staircase,2023.1.3,59.7282722,,
115,0.5,1,237.8538181,238.3537021,238.3537021,238.3537021,238.6536719,right,1,0,0,1.60227,482354,1,2023-09-05_09h29.43.066,adaptive_staircase,2023.1.3,59.7282722,,
116,0.5,1.5,239.9872546,240.4873207,240.4873207,240.4873207,240.7873951,left,-1.5,1,1,0.6217396,482354,1,2023-09-05_09h29.43.066,adaptive_staircase,2023.1.3,59.7282722,,
117,0.5,1.5,241.1369901,241.6370868,241.6370868,241.6370868,241.937103,right,1.5,1,1,0.5345651,482354,1,2023-09-05_09h29.43.066,adaptive_staircase,2023.1.3,59.7282722,,
118,0.5,1,242.2039997,242.6872787,242.6872787,242.7037544,242.9871605,right,1,1,1,0.6145569,482354,1,2023-09-05_09h29.43.066,adaptive_staircase,2023.1.3,59.7282722,,
119,0.5,1,243.3203543,243.8205045,243.8205045,243.8205045,244.1207943,left,-1,1,1,0.6595886,482354,1,2023-09-05_09h29.43.066,adaptive_staircase,2023.1.3,59.7282722,,
120,0.5,1,244.5041191,244.9872395,244.9872395,245.0039291,245.2871424,right,1,1,1,0.8073127,482354,1,2023-09-05_09h29.43.066,adaptive_staircase,2023.1.3,59.7282722,,
121,0.5,1,245.8205925,246.3206549,246.3206549,246.3206549,246.6203698,left,-1,1,1,0.766331,482354,1,2023-09-05_09h29.43.066,adaptive_staircase,2023.1.3,59.7282722,,
122,0.5,1,247.1036363,247.587441,247.587441,247.6039153,247.8870681,right,1,1,1,1.32559,482354,1,2023-09-05_09h29.43.066,adaptive_staircase,2023.1.3,59.7282722,,
123,0.5,1,248.9371188,249.4371169,249.4371169,249.4371169,249.737286,left,-1,1,1,2.6629009,482354,1,2023-09-05_09h29.43.066,adaptive_staircase,2023.1.3,59.7282722,,
124,0.5,1,252.1204896,252.6085278,252.6085278,252.6241572,252.9208621,right,1,1,1,1.9677319,482354,1,2023-09-05_09h29.43.066,adaptive_staircase,2023.1.3,59.7282722,,
125,0.5,1,254.6038526,255.0874162,255.0874162,255.1040177,255.3870858,left,-1,1,1,0.6007401,482354,1,2023-09-05_09h29.43.066,adaptive_staircase,2023.1.3,59.7282722,,
126,0.5,1,255.7203293,256.2039701,256.2039701,256.2206239,256.5038855,right,1,1,1,1.2789516,482354,1,2023-09-05_09h29.43.066,adaptive_staircase,2023.1.3,59.7282722,,
127,0.5,1,257.5039277,257.9872851,257.9872851,258.0037696,258.2872816,right,1,1,1,0.8261173,482354,1,2023-09-05_09h29.43.066,adaptive_staircase,2023.1.3,59.7282722,,
128,0.5,1,258.8371379,259.3206258,259.3206258,259.3375039,259.6210229,right,1,1,1,0.5123621,482354,1,2023-09-05_09h29.43.066,adaptive_staircase,2023.1.3,59.7282722,,
129,0.5,1,259.8537966,260.3539874,260.3539874,260.3539874,260.6539396,right,1,1,1,0.5690878,482354,1,2023-09-05_09h29.43.066,adaptive_staircase,2023.1.3,59.7282722,,
130,0.5,1,260.9539292,261.4390913,261.4390913,261.4560868,261.7381792,left,-1,1,1,0.6518325,482354,1,2023-09-05_09h29.43.066,adaptive_staircase,2023.1.3,59.7282722,,
131,0.5,1,262.1235797,262.620654,262.620654,262.6372324,262.9208341,left,-1,1,1,0.5439932,482354,1,2023-09-05_09h29.43.066,adaptive_staircase,2023.1.3,59.7282722,,
132,0.5,1,263.1871802,263.6871821,263.6871821,263.6871821,263.9873105,left,-1,1,1,0.5706407,482354,1,2023-09-05_09h29.43.066,adaptive_staircase,2023.1.3,59.7282722,,
133,0.5,1,264.2873354,264.7707879,264.7707879,264.787169,265.0704364,left,-1,1,1,0.5379408,482354,1,2023-09-05_09h29.43.066,adaptive_staircase,2023.1.3,59.7282722,,
134,0.5,1,265.3374107,265.8208813,265.8208813,265.8374484,266.1206268,left,-1,1,1,0.4650854,482354,1,2023-09-05_09h29.43.066,adaptive_staircase,2023.1.3,59.7282722,,
135,0.5,1,266.3039092,266.8041625,266.8041625,266.8041625,267.1039807,left,-1,1,1,0.5840121,482354,1,2023-09-05_09h29.43.066,adaptive_staircase,2023.1.3,59.7282722,,
136,0.5,1,267.4039843,267.9038674,267.9038674,267.9038674,268.204683,left,-1,1,1,0.5726936,482354,1,2023-09-05_09h29.43.066,adaptive_staircase,2023.1.3,59.7282722,,
137,0.5,1,268.5039341,268.987396,268.987396,269.0041248,269.2873291,left,-1,1,1,0.5325568,482354,1,2023-09-05_09h29.43.066,adaptive_staircase,2023.1.3,59.7282722,,
138,0.5,1,269.5371593,270.0374795,270.0374795,270.0374795,270.3372389,left,-1,1,1,0.5950482,482354,1,2023-09-05_09h29.43.066,adaptive_staircase,2023.1.3,59.7282722,,
139,0.5,1,270.6540253,271.1541146,271.1541146,271.1541146,271.4540022,right,1,1,1,0.9723718,482354,1,2023-09-05_09h29.43.066,adaptive_staircase,2023.1.3,59.7282722,,
140,0.5,1,272.1541573,272.6372901,272.6372901,272.6539983,272.9372269,right,1,1,1,0.8502197,482354,1,2023-09-05_09h29.43.066,adaptive_staircase,2023.1.3,59.7282722,,
141,0.5,1,273.520663,274.020722,274.020722,274.020722,274.3207695,right,1,1,1,0.4900805,482354,1,2023-09-05_09h29.43.066,adaptive_staircase,2023.1.3,59.7282722,,
142,0.5,1,274.537573,275.0375408,275.0375408,275.0375408,275.3375089,left,-1,1,1,0.6170312,482354,1,2023-09-05_09h29.43.066,adaptive_staircase,2023.1.3,59.7282722,,
143,0.5,1,275.6748666,276.17075,276.17075,276.187156,276.4707882,right,1,1,1,0.7190993,482354,1,2023-09-05_09h29.43.066,adaptive_staircase,2023.1.3,59.7282722,,
144,0.5,1,276.9206529,277.4039611,277.4039611,277.4206885,277.7041224,left,-1,1,1,0.6186265,482354,1,2023-09-05_09h29.43.066,adaptive_staircase,2023.1.3,59.7282722,,
145,0.5,1,278.0541741,278.5542707,278.5542707,278.5542707,278.8545335,right,1,1,1,0.5601956,482354,1,2023-09-05_09h29.43.066,adaptive_staircase,2023.1.3,59.7282722,,
146,0.5,1,279.1372896,279.6207667,279.6207667,279.6373363,279.9208017,right,1,1,1,0.5305243,482354,1,2023-09-05_09h29.43.066,adaptive_staircase,2023.1.3,59.7282722,,
147,0.5,1,280.1702451,280.6541524,280.6541524,280.6707473,280.9542251,right,1,1,1,0.6079515,482354,1,2023-09-05_09h29.43.066,adaptive_staircase,2023.1.3,59.7282722,,
148,0.5,1,281.2875269,281.7726895,281.7726895,281.7874389,282.0873478,right,1,1,1,0.5075953,482354,1,2023-09-05_09h29.43.066,adaptive_staircase,2023.1.3,59.7282722,,
149,0.5,1,282.3042993,282.7875776,282.7875776,282.8040537,283.0878235,right,1,1,1,0.5675564,482354,1,2023-09-05_09h29.43.066,adaptive_staircase,2023.1.3,59.7282722,,
150,0.5,1,283.3876737,283.8710708,283.8710708,283.8876327,284.170687,left,-1,1,1,0.6822933,482354,1,2023-09-05_09h29.43.066,adaptive_staircase,2023.1.3,59.7282722,,
151,0.5,1,284.5707463,285.0707988,285.0707988,285.0707988,285.3706704,left,-1,1,1,0.5320179,482354,1,2023-09-05_09h29.43.066,adaptive_staircase,2023.1.3,59.7282722,,
152,0.5,1,285.6209005,286.1208862,286.1208862,286.1208862,286.4208736,left,-1,1,1,0.5168053,482354,1,2023-09-05_09h29.43.066,adaptive_staircase,2023.1.3,59.7282722,,
153,0.5,1,286.6541161,287.154408,287.154408,287.154408,287.4539931,right,1,0,0,5.0642249,482354,1,2023-09-05_09h29.43.066,adaptive_staircase,2023.1.3,59.7282722,,
154,0.5,1.5,292.23737,292.7211875,292.7211875,292.7373132,293.0206138,right,1.5,1,1,0.480132,482354,1,2023-09-05_09h29.43.066,adaptive_staircase,2023.1.3,59.7282722,,
155,0.5,1.5,293.2211744,293.7210427,293.7210427,293.7210427,294.0209292,left,-1.5,1,1,0.5590524,482354,1,2023-09-05_09h29.43.066,adaptive_staircase,2023.1.3,59.7282722,,
156,0.5,1,294.304101,294.7874016,294.7874016,294.804266,295.087779,left,-1,1,1,0.6523303,482354,1,2023-09-05_09h29.43.066,adaptive_staircase,2023.1.3,59.7282722,,
157,0.5,1,295.4707358,295.9539729,295.9539729,295.9709182,296.254071,right,1,1,1,0.4692473,482354,1,2023-09-05_09h29.43.066,adaptive_staircase,2023.1.3,59.7282722,,
158,0.5,1,296.4544486,296.9378556,296.9378556,296.9541411,297.23772,right,1,1,1,0.6776231,482354,1,2023-09-05_09h29.43.066,adaptive_staircase,2023.1.3,59.7282722,,
159,0.5,1,297.6373757,298.1208845,298.1208845,298.1378746,298.4207647,right,1,1,1,0.8667193,482354,1,2023-09-05_09h29.43.066,adaptive_staircase,2023.1.3,59.7282722,,
160,0.5,1,299.0042395,299.5043511,299.5043511,299.5043511,299.8041544,left,-1,1,1,1.0017203,482354,1,2023-09-05_09h29.43.066,adaptive_staircase,2023.1.3,59.7282722,,
161,0.5,1,300.5377703,301.0206491,301.0206491,301.0374981,301.3207583,right,1,1,1,0.7542596,482354,1,2023-09-05_09h29.43.066,adaptive_staircase,2023.1.3,59.7282722,,
162,0.5,1,301.8042463,302.3042677,302.3042677,302.3042677,302.6039643,left,-1,1,1,0.6512743,482354,1,2023-09-05_09h29.43.066,adaptive_staircase,2023.1.3,59.7282722,,
163,0.5,1,302.9876523,303.4875579,303.4875579,303.4875579,303.7875711,right,1,1,1,0.4684522,482354,1,2023-09-05_09h29.43.066,adaptive_staircase,2023.1.3,59.7282722,,
164,0.5,1,303.987552,304.4875859,304.4875859,304.4875859,304.7876123,right,1,1,1,0.6476427,482354,1,2023-09-05_09h29.43.066,adaptive_staircase,2023.1.3,59.7282722,,
165,0.5,1,305.1542531,305.6545744,305.6545744,305.6545744,305.9541636,left,-1,1,1,0.5739223,482354,1,2023-09-05_09h29.43.066,adaptive_staircase,2023.1.3,59.7282722,,
166,0.5,1,306.2540466,306.75421,306.75421,306.75421,307.0542071,left,-1,1,1,0.663042,482354,1,2023-09-05_09h29.43.066,adaptive_staircase,2023.1.3,59.7282722,,
167,0.5,1,307.4374511,307.9377722,307.9377722,307.9377722,308.2380264,left,-1,1,1,0.6862168,482354,1,2023-09-05_09h29.43.066,adaptive_staircase,2023.1.3,59.7282722,,
168,0.5,1,308.6543704,309.1375361,309.1375361,309.1542815,309.437603,left,-1,1,1,0.6969648,482354,1,2023-09-05_09h29.43.066,adaptive_staircase,2023.1.3,59.7282722,,
169,0.5,1,309.8540304,310.3542279,310.3542279,310.3542279,310.6545099,left,-1,1,1,0.6676142,482354,1,2023-09-05_09h29.43.066,adaptive_staircase,2023.1.3,59.7282722,,
170,0.5,1,311.0542109,311.537725,311.537725,311.5544055,311.8377174,right,1,1,1,0.9324859,482354,1,2023-09-05_09h29.43.066,adaptive_staircase,2023.1.3,59.7282722,,
171,0.5,1,312.4874157,312.9875596,312.9875596,312.9875596,313.2885528,left,-1,1,1,0.4766595,482354,1,2023-09-05_09h29.43.066,adaptive_staircase,2023.1.3,59.7282722,,
172,0.5,1,313.4892984,313.987786,313.987786,314.0045391,314.2875954,left,-1,1,1,0.5851462,482354,1,2023-09-05_09h29.43.066,adaptive_staircase,2023.1.3,59.7282722,,
173,0.5,1,314.6041966,315.1044974,315.1044974,315.1044974,315.4042449,left,-1,1,1,0.6077622,482354,1,2023-09-05_09h29.43.066,adaptive_staircase,2023.1.3,59.7282722,,
174,0.5,1,315.737446,316.2208691,316.2208691,316.2378637,316.520867,right,1,1,1,0.61052,482354,1,2023-09-05_09h29.43.066,adaptive_staircase,2023.1.3,59.7282722,,
175,0.5,1,316.8541937,317.3377371,317.3377371,317.3543299,317.6376763,left,-1,1,1,0.7276377,482354,1,2023-09-05_09h29.43.066,adaptive_staircase,2023.1.3,59.7282722,,
176,0.5,1,318.0874597,318.571021,318.571021,318.5876446,318.8714087,left,-1,1,1,0.4634686,482354,1,2023-09-05_09h29.43.066,adaptive_staircase,2023.1.3,59.7282722,,
177,0.5,1,319.0546112,319.5543606,319.5543606,319.5543606,319.8543735,left,-1,1,1,0.5147077,482354,1,2023-09-05_09h29.43.066,adaptive_staircase,2023.1.3,59.7282722,,
178,0.5,1,320.0875592,320.5875226,320.5875226,320.5875226,320.8879306,left,-1,1,1,0.4563232,482354,1,2023-09-05_09h29.43.066,adaptive_staircase,2023.1.3,59.7282722,,
179,0.5,1,321.0714373,321.5710971,321.5710971,321.5710971,321.8714806,left,-1,1,1,0.4798788,482354,1,2023-09-05_09h29.43.066,adaptive_staircase,2023.1.3,59.7282722,,
180,0.5,1,322.0748917,322.5543744,322.5543744,322.5879097,322.8543327,right,1,1,1,0.7522133,482354,1,2023-09-05_09h29.43.066,adaptive_staircase,2023.1.3,59.7282722,,
181,0.5,1,323.3376122,323.8212375,323.8212375,323.8386009,324.1210632,right,1,1,1,0.6977576,482354,1,2023-09-05_09h29.43.066,adaptive_staircase,2023.1.3,59.7282722,,
182,0.5,1,324.5375689,325.0377531,325.0377531,325.0377531,325.3380731,left,-1,1,1,0.6121215,482354,1,2023-09-05_09h29.43.066,adaptive_staircase,2023.1.3,59.7282722,,
183,0.5,1,325.6709202,326.1544466,326.1544466,326.1714009,326.4545223,right,1,0,0,2.4775575,482354,1,2023-09-05_09h29.43.066,adaptive_staircase,2023.1.3,59.7282722,,
184,0.5,1.5,328.6543697,329.1547478,329.1547478,329.1547478,329.4543629,left,-1.5,1,1,0.5882421,482354,1,2023-09-05_09h29.43.066,adaptive_staircase,2023.1.3,59.7282722,,
185,0.5,1.5,329.7713243,330.2543029,330.2543029,330.2710328,330.5545861,right,1.5,1,1,0.6270698,482354,1,2023-09-05_09h29.43.066,adaptive_staircase,2023.1.3,59.7282722,,
186,0.5,1,330.9044543,331.3877504,331.3877504,331.4047124,331.6875372,right,1,1,1,1.6842206,482354,1,2023-09-05_09h29.43.066,adaptive_staircase,2023.1.3,59.7282722,,
187,0.5,1,333.1048079,333.6044143,333.6044143,333.6044143,333.9042057,left,-1,1,1,0.5146664,482354,1,2023-09-05_09h29.43.066,adaptive_staircase,2023.1.3,59.7282722,,
188,0.5,1,334.1377889,334.6378411,334.6378411,334.6378411,334.9378864,right,1,1,1,2.3441991,482354,1,2023-09-05_09h29.43.066,adaptive_staircase,2023.1.3,59.7282722,,
189,0.5,1,337.0044052,337.5043456,337.5043456,337.5043456,337.8042951,left,-1,1,1,0.657674,482354,1,2023-09-05_09h29.43.066,adaptive_staircase,2023.1.3,59.7282722,,
190,0.5,1,338.187828,338.6711123,338.6711123,338.6876655,338.9712043,right,1,1,1,0.5852767,482354,1,2023-09-05_09h29.43.066,adaptive_staircase,2023.1.3,59.7282722,,
191,0.5,1,339.2877469,339.7876503,339.7876503,339.7876503,340.0879022,right,1,1,1,0.7703415,482354,1,2023-09-05_09h29.43.066,adaptive_staircase,2023.1.3,59.7282722,,
192,0.5,1,340.587634,341.0877272,341.0877272,341.0877272,341.3878913,left,-1,1,1,0.5676223,482354,1,2023-09-05_09h29.43.066,adaptive_staircase,2023.1.3,59.7282722,,
193,0.5,1,341.6876568,342.1711411,342.1711411,342.1877794,342.4710946,right,1,1,1,1.3225276,482354,1,2023-09-05_09h29.43.066,adaptive_staircase,2023.1.3,59.7282722,,
194,0.5,1,343.5212296,344.0213493,344.0213493,344.0213493,344.320978,right,1,1,1,0.556141,482354,1,2023-09-05_09h29.43.066,adaptive_staircase,2023.1.3,59.7282722,,
195,0.5,1,344.6043486,345.0878327,345.0878327,345.1045527,345.3878876,left,-1,0,0,1.3329754,482354,1,2023-09-05_09h29.43.066,adaptive_staircase,2023.1.3,59.7282722,,
196,0.5,1.5,346.4384389,346.9377166,346.9377166,346.9377166,347.2377677,right,1.5,1,1,0.5766908,482354,1,2023-09-05_09h29.43.066,adaptive_staircase,2023.1.3,59.7282722,,
197,0.5,1.5,347.5378549,348.037987,348.037987,348.037987,348.3380994,right,1.5,1,1,0.4936209,482354,1,2023-09-05_09h29.43.066,adaptive_staircase,2023.1.3,59.7282722,,
198,0.5,1,348.5545144,349.0546177,349.0546177,349.0546177,349.3544704,right,1,1,1,0.4359066,482354,1,2023-09-05_09h29.43.066,adaptive_staircase,2023.1.3,59.7282722,,
199,0.5,1,349.5209747,350.0045597,350.0045597,350.0214001,350.3047801,right,1,1,1,0.4590075,482354,1,2023-09-05_09h29.43.066,adaptive_staircase,2023.1.3,59.7282722,,
